aX,aY,aZ,gX,gY,gZ
-0.534,-0.052,-1.934,194.519,-46.082,-68.115
-0.437,0.014,-1.724,249.817,-53.162,-95.825
-0.326,0.061,-1.553,294.495,-62.439,-114.624
-0.109,0.179,-1.229,313.660,-67.383,-120.300
-0.014,0.217,-1.120,344.910,-74.646,-126.770
0.103,0.282,-0.945,358.459,-77.271,-125.916
0.116,0.324,-0.858,385.925,-81.604,-116.882
0.107,0.320,-0.703,395.142,-94.482,-113.586
0.088,0.305,-0.593,411.743,-134.827,-112.488
0.062,0.275,-0.374,418.152,-148.376,-113.647
0.059,0.297,-0.170,419.983,-142.334,-116.638
0.080,0.303,-0.089,403.198,-121.216,-117.920
0.146,0.298,-0.009,389.832,-111.145,-117.065
0.194,0.281,0.057,374.878,-99.792,-105.774
0.319,0.282,0.274,369.263,-98.145,-96.436
0.331,0.301,0.395,338.867,-78.552,-79.041
0.296,0.305,0.566,318.665,-63.049,-73.425
0.282,0.287,0.625,281.616,-53.345,-69.153
0.318,0.242,0.739,265.747,-55.420,-65.979
0.322,0.230,0.823,239.197,-51.636,-55.115
0.311,0.204,1.048,225.403,-47.241,-52.429
0.309,0.184,1.162,180.603,-43.640,-48.706
0.322,0.151,1.305,150.635,-43.945,-43.213
0.329,0.148,1.317,120.300,-41.870,-34.790
0.331,0.176,1.290,72.693,-21.301,-12.695
0.318,0.201,1.276,54.687,-7.996,-2.258
0.306,0.226,1.265,18.677,4.211,7.446
0.305,0.258,1.233,-1.465,2.869,7.263
0.323,0.272,1.204,-43.823,-3.296,7.446
0.386,0.322,1.099,-63.171,-1.465,11.108
0.412,0.355,1.018,-91.309,14.648,28.137
0.443,0.423,0.865,-100.098,23.804,39.429
0.441,0.447,0.826,-113.831,33.691,56.580
0.441,0.451,0.849,-124.207,27.100,56.946
0.450,0.444,0.913,-160.522,-8.850,45.288
0.441,0.393,1.009,-185.791,-20.935,43.579
0.401,0.365,0.983,-226.013,-3.967,67.383
0.292,0.370,0.852,-236.877,19.287,84.839
0.234,0.380,0.776,-260.193,53.772,106.506
0.164,0.406,0.658,-276.184,58.105,108.704
0.155,0.417,0.596,-322.266,46.997,98.083
0.143,0.419,0.403,-346.191,44.006,89.905
0.134,0.410,0.279,-373.840,64.941,82.397
0.159,0.352,-0.028,-379.822,86.609,85.510
0.183,0.324,-0.223,-383.484,103.455,95.703
0.141,0.361,-0.381,-365.417,116.211,131.470
-0.017,0.490,-0.514,-347.717,114.990,139.954
-0.076,0.506,-0.549,-337.402,74.829,117.615
-0.119,0.458,-0.654,-336.304,52.856,97.839
-0.131,0.428,-0.710,-322.327,51.636,72.815
-0.148,0.391,-0.849,-309.570,58.594,67.810
-0.141,0.348,-0.899,-275.452,59.814,69.031
-0.177,0.251,-1.040,-267.273,61.157,72.083
-0.236,0.269,-1.153,-259.766,64.331,63.110
-0.255,0.314,-1.325,-247.803,52.979,50.415
-0.214,0.314,-1.329,-205.505,-2.869,30.762
-0.113,0.301,-1.132,-183.838,-37.903,28.625
-0.126,0.276,-1.011,-165.955,-58.228,35.645
-0.250,0.226,-1.014,-169.250,-27.100,32.532
-0.261,0.213,-1.140,-179.749,45.471,15.137
-0.200,0.176,-1.446,-175.476,52.429,11.353
-0.135,0.159,-1.468,-134.949,15.442,10.681
-0.135,0.160,-1.440,-113.586,2.869,11.780
-0.115,0.178,-1.296,-87.891,15.381,10.437
-0.074,0.153,-1.185,-84.412,20.813,5.249
-0.067,0.154,-1.274,-81.726,25.330,3.906
-0.056,0.150,-1.429,-71.960,21.057,8.057
-0.067,0.156,-1.404,-39.734,-1.404,14.648
-0.115,0.163,-1.219,-27.100,-9.888,15.198
-0.123,0.160,-1.157,-21.484,-4.150,12.085
-0.118,0.190,-1.127,-22.583,4.395,9.766
-0.127,0.198,-1.125,-18.921,4.211,7.507
-0.174,0.196,-1.138,-14.038,-3.418,6.226
-0.187,0.197,-1.139,-2.014,-11.475,0.427
-0.181,0.205,-1.123,3.357,-13.611,-3.601
-0.155,0.193,-1.115,8.484,-19.226,-9.094
-0.097,0.175,-1.091,8.057,-20.264,-9.399
-0.081,0.174,-1.088,5.981,-16.479,-6.042
-0.074,0.174,-1.060,5.981,-14.282,-4.456
-0.078,0.178,-1.040,6.042,-11.597,-2.930
-0.096,0.192,-1.005,7.019,-11.414,-2.197
-0.105,0.193,-0.985,8.911,-8.789,-2.197
-0.112,0.187,-0.963,7.690,-5.432,-2.563
-0.114,0.184,-0.971,3.540,-3.113,-3.601
-0.113,0.177,-0.988,3.235,-3.601,-4.639
-0.104,0.167,-0.986,4.761,-3.662,-6.287
-0.078,0.152,-0.982,5.066,-4.028,-6.348
-0.072,0.159,-0.980,4.395,-7.263,-5.188
-0.065,0.175,-0.966,4.028,-8.240,-5.371
-0.058,0.177,-0.961,3.418,-6.348,-4.700
-0.046,0.183,-0.961,3.235,-5.005,-3.418
-0.047,0.184,-0.963,3.296,-1.587,-0.854
-0.062,0.179,-0.967,2.625,-0.488,-0.244
-0.075,0.183,-0.974,1.831,0.916,0.488
-0.095,0.189,-0.987,2.380,1.221,0.000
-0.094,0.189,-0.985,3.235,1.099,-1.221
-0.085,0.192,-0.973,3.967,-0.305,-2.686
-0.079,0.194,-0.969,3.296,-1.282,-2.808
-0.073,0.198,-0.964,1.831,-1.587,-3.235
-0.071,0.198,-0.961,1.465,-0.061,-3.235
-0.068,0.193,-0.970,0.305,0.549,-2.502
-0.060,0.190,-1.002,-0.061,1.465,-2.136
-0.057,0.194,-1.002,1.648,2.014,-2.319
-0.054,0.193,-0.992,2.441,1.282,-2.319
-0.054,0.196,-0.988,2.380,1.221,-1.099
-0.053,0.198,-0.979,1.160,0.427,-0.122
-0.059,0.199,-0.985,-1.099,-2.258,1.221
-0.068,0.203,-0.994,-0.732,-1.587,0.671
-0.068,0.202,-0.993,2.197,-0.427,-0.671
-0.060,0.188,-0.983,3.113,-0.916,-0.977
-0.059,0.186,-0.981,2.319,-0.793,0.427
-0.064,0.196,-0.978,1.770,-0.977,0.854
-0.066,0.198,-0.973,1.099,-2.686,0.549
-0.064,0.203,-0.960,0.916,-2.380,0.366
-0.064,0.203,-0.959,0.183,-0.671,-0.854
-0.052,0.186,-0.963,-0.427,-0.183,-0.854
-0.056,0.188,-0.970,-2.075,1.831,1.404
-0.073,0.205,-0.992,-1.953,1.831,1.221
-0.073,0.202,-0.995,0.488,0.732,-0.122

-0.415,0.208,-1.890,260.315,24.719,-91.248
-0.436,0.216,-1.764,318.726,8.057,-109.314
-0.454,0.209,-1.456,339.111,-2.869,-118.896
-0.404,0.199,-1.198,361.816,-24.170,-137.512
-0.333,0.255,-1.088,389.038,-21.301,-157.898
-0.137,0.295,-0.893,405.395,-18.494,-170.898
-0.038,0.247,-0.799,436.035,-21.179,-193.054
0.184,0.125,-0.496,426.453,-38.330,-180.725
0.308,0.216,-0.232,397.034,-59.143,-160.461
0.290,0.308,-0.192,348.511,-90.393,-132.874
0.266,0.331,-0.161,343.628,-97.046,-132.080
0.301,0.284,-0.122,352.112,-115.173,-137.146
0.392,0.239,0.012,357.056,-121.460,-135.010
0.407,0.240,0.114,366.577,-101.379,-125.427
0.433,0.224,0.341,363.037,-90.515,-120.422
0.432,0.239,0.447,330.078,-91.736,-104.553
0.381,0.258,0.590,305.298,-99.365,-96.924
0.354,0.241,0.645,270.752,-96.375,-87.463
0.356,0.167,0.725,263.977,-78.491,-81.909
0.349,0.124,0.798,250.732,-51.575,-65.552
0.294,0.080,1.036,235.779,-54.260,-61.340
0.283,0.049,1.126,186.707,-67.505,-64.514
0.264,-0.031,1.199,164.001,-67.017,-62.683
0.234,-0.056,1.268,134.888,-52.917,-50.415
0.214,-0.110,1.478,114.319,-44.861,-45.898
0.230,-0.139,1.534,53.528,-27.161,-36.499
0.288,-0.173,1.509,22.034,-18.677,-28.687
0.318,-0.172,1.480,-31.616,-7.507,-9.033
0.363,-0.091,1.386,-54.016,-0.610,2.808
0.375,-0.023,1.308,-94.421,13.367,26.367
0.402,0.118,1.088,-112.793,15.808,35.278
0.420,0.183,0.988,-127.136,15.320,41.138
0.438,0.272,0.920,-146.362,9.094,42.297
0.430,0.295,0.935,-156.738,3.967,41.260
0.418,0.301,0.961,-186.401,-2.197,40.588
0.387,0.260,0.931,-203.674,-2.808,41.260
0.373,0.242,0.900,-225.769,5.737,53.040
0.333,0.245,0.901,-238.525,10.559,60.791
0.320,0.253,0.889,-287.048,11.841,67.871
0.329,0.240,0.767,-315.918,11.719,69.214
0.331,0.238,0.696,-362.244,26.001,81.604
0.290,0.217,0.534,-381.836,42.786,93.567
0.252,0.190,0.401,-416.321,75.439,121.338
0.127,0.210,0.151,-427.246,84.167,132.874
0.091,0.235,0.037,-441.956,79.590,135.193
0.058,0.263,-0.215,-443.420,75.378,130.188
0.025,0.269,-0.301,-427.978,101.624,129.578
-0.095,0.280,-0.472,-426.819,112.671,129.395
-0.149,0.285,-0.619,-428.101,102.722,109.253
-0.180,0.271,-0.951,-412.964,96.069,96.558
-0.210,0.281,-1.063,-346.741,109.131,90.881
-0.284,0.280,-1.206,-318.115,107.422,86.731
-0.309,0.245,-1.260,-290.283,49.622,64.697
-0.311,0.180,-1.378,-280.945,15.686,53.711
-0.302,0.171,-1.417,-257.385,-10.132,33.691
-0.224,0.149,-1.504,-243.652,-12.390,24.048
-0.189,0.148,-1.517,-202.026,-29.480,13.367
-0.093,0.132,-1.434,-180.115,-46.387,11.292
-0.093,0.140,-1.384,-144.836,-62.988,16.174
-0.157,0.178,-1.403,-131.958,-43.640,14.404
-0.082,0.180,-1.334,-110.657,22.034,2.319
0.007,0.173,-1.417,-99.243,26.367,0.427
0.024,0.184,-1.429,-77.820,0.061,0.610
0.006,0.202,-1.333,-62.317,-1.770,1.648
0.015,0.194,-1.267,-42.847,-1.953,3.845
0.021,0.214,-1.234,-41.199,-10.193,7.019
-0.002,0.235,-1.227,-39.063,-16.418,9.521
-0.002,0.217,-1.296,-27.161,-11.475,7.263
0.036,0.194,-1.358,-9.766,-2.747,5.859
0.025,0.209,-1.310,-3.113,-6.897,7.080
-0.005,0.226,-1.238,1.343,-14.038,8.606
-0.057,0.243,-1.070,1.587,-25.757,6.653
-0.066,0.247,-1.039,-1.282,-26.123,4.272
-0.049,0.246,-1.014,-2.014,-14.099,-0.061
-0.031,0.242,-0.997,0.000,-10.376,-2.014
0.000,0.244,-0.969,3.784,-12.085,-3.906
0.010,0.242,-0.957,5.310,-13.123,-3.845
0.028,0.229,-0.927,6.775,-10.681,-3.967
0.033,0.222,-0.920,5.615,-8.789,-4.028
0.027,0.211,-0.933,1.099,-6.348,-2.991
0.017,0.208,-0.944,-0.488,-5.066,-1.892
0.008,0.203,-0.961,-1.343,-4.822,0.244
0.004,0.191,-0.999,-0.977,-4.272,-0.183
0.003,0.187,-1.010,1.221,-1.038,-0.916
0.000,0.181,-1.027,2.075,-1.099,-1.221
0.002,0.177,-1.024,4.028,-4.700,-1.404
0.004,0.189,-1.003,4.211,-5.188,-0.977
0.007,0.202,-0.992,4.211,-5.066,-2.319
0.025,0.210,-0.963,4.822,-5.920,-2.930
0.030,0.213,-0.947,6.042,-3.601,-1.282
0.029,0.224,-0.935,5.188,-2.319,-0.061
0.029,0.219,-0.946,1.343,-2.380,0.061
0.028,0.219,-0.966,0.427,-0.793,0.000
0.028,0.224,-0.974,0.549,0.122,-0.244
0.034,0.210,-0.983,0.427,-2.563,0.061
0.028,0.210,-0.989,-0.122,-2.014,1.038
0.027,0.221,-1.002,0.488,1.892,-0.122
0.035,0.214,-0.997,2.014,3.113,-2.319
0.049,0.190,-0.981,0.916,1.343,-1.160
0.038,0.205,-0.985,-0.793,0.732,2.686
0.021,0.218,-0.986,-0.366,0.549,2.319
0.018,0.212,-0.985,0.366,2.136,1.282
0.005,0.218,-0.998,1.099,3.662,0.916
0.005,0.219,-1.001,3.540,0.488,-2.319
0.030,0.200,-0.966,4.883,-1.160,-3.052
0.036,0.197,-0.951,2.930,-0.183,-0.732
0.026,0.217,-0.969,1.648,0.244,-0.366
0.024,0.220,-0.979,2.930,-2.075,-2.991
0.019,0.230,-0.970,4.333,-4.883,-4.639
0.011,0.244,-0.963,7.385,-9.216,-8.728
0.020,0.239,-0.955,9.827,-9.705,-11.841
0.062,0.190,-0.937,8.606,-9.338,-8.179
0.074,0.192,-0.949,3.113,-6.470,-0.549
0.049,0.227,-0.986,-1.221,-0.305,4.517
0.038,0.242,-1.039,-0.732,10.559,4.028
0.036,0.232,-1.036,1.831,8.728,2.808
0.028,0.223,-1.015,5.371,1.770,3.235
0.006,0.227,-0.972,5.554,1.831,4.150
0.001,0.231,-0.965,5.249,5.310,4.272

-0.478,0.103,-2.005,204.468,43.152,-67.322
-0.532,0.157,-1.768,281.982,21.362,-93.140
-0.522,0.177,-1.575,341.431,-25.879,-118.225
-0.446,0.115,-1.234,360.229,-44.800,-130.493
-0.364,0.066,-1.134,390.747,-38.452,-148.376
-0.173,0.054,-1.011,409.058,-19.409,-151.550
-0.105,0.072,-0.927,451.782,13.977,-161.255
0.036,0.050,-0.614,464.233,9.155,-171.448
0.118,0.040,-0.430,453.186,-50.171,-185.791
0.276,0.059,-0.132,437.134,-82.031,-184.631
0.329,0.089,-0.009,407.349,-98.999,-162.903
0.371,0.168,0.219,397.461,-83.130,-149.536
0.402,0.192,0.291,367.126,-56.458,-134.521
0.482,0.209,0.404,348.206,-57.007,-126.953
0.512,0.210,0.482,323.669,-62.317,-104.187
0.490,0.183,0.763,318.848,-50.720,-92.896
0.453,0.144,0.946,285.034,-48.096,-87.219
0.356,0.056,1.237,247.925,-77.209,-95.154
0.315,0.024,1.331,171.814,-148.682,-113.770
0.258,-0.042,1.579,147.888,-158.997,-113.159
0.241,-0.088,1.736,107.971,-112.366,-79.956
0.200,-0.109,1.917,78.552,-73.303,-51.697
0.170,-0.071,1.898,-0.305,-8.606,1.831
0.125,0.041,1.694,-43.701,8.484,17.151
0.112,0.096,1.535,-118.652,15.259,19.409
0.172,0.204,1.211,-142.334,13.000,14.771
0.219,0.268,1.098,-167.297,12.817,18.982
0.266,0.384,0.968,-178.284,18.066,26.550
0.272,0.414,0.919,-218.750,21.973,32.593
0.312,0.425,0.817,-247.925,15.076,28.198
0.361,0.408,0.747,-310.669,-3.357,18.311
0.450,0.349,0.494,-333.557,-0.061,22.034
0.483,0.334,0.344,-340.942,46.021,57.007
0.397,0.359,0.175,-335.937,75.745,80.750
0.313,0.379,0.084,-348.267,82.581,105.103
0.289,0.423,-0.139,-354.553,59.021,101.440
0.312,0.417,-0.181,-354.736,37.598,95.337
0.260,0.371,-0.251,-366.333,45.898,94.788
0.190,0.359,-0.360,-386.414,68.420,95.520
0.089,0.350,-0.674,-415.527,90.820,84.534
0.062,0.341,-0.816,-405.090,83.679,76.660
0.040,0.327,-0.927,-340.149,87.280,78.186
-0.047,0.294,-1.013,-300.171,107.239,88.074
-0.097,0.268,-1.021,-267.456,98.328,93.506
-0.118,0.239,-1.117,-276.794,46.509,83.069
-0.140,0.248,-1.189,-271.301,-45.166,55.847
-0.223,0.230,-1.267,-246.948,-33.569,46.143
-0.231,0.223,-1.260,-202.454,32.288,32.898
-0.136,0.230,-1.261,-196.289,31.006,26.550
-0.070,0.240,-1.277,-182.617,-23.743,19.409
-0.022,0.260,-1.175,-164.856,-44.739,19.287
-0.032,0.253,-1.087,-137.573,-48.645,21.667
-0.071,0.215,-1.016,-130.737,-24.841,21.423
-0.060,0.225,-1.096,-122.864,49.683,12.146
-0.008,0.198,-1.213,-113.525,61.218,10.010
-0.005,0.171,-1.263,-94.055,32.349,10.864
-0.028,0.120,-1.378,-85.937,21.301,12.878
-0.026,0.103,-1.397,-71.289,13.672,12.268
-0.020,0.151,-1.505,-62.622,6.714,10.376
0.040,0.164,-1.583,-26.733,-8.606,10.559
0.026,0.159,-1.331,-15.259,-25.452,11.108
-0.004,0.175,-1.199,-21.545,-44.983,12.512
-0.077,0.206,-1.146,-20.935,-27.832,12.634
-0.068,0.187,-1.172,-18.372,11.108,6.409
-0.012,0.184,-1.247,-17.761,10.864,3.540
-0.019,0.198,-1.232,-5.981,-9.949,1.892
-0.039,0.215,-1.118,0.671,-17.944,0.244
-0.034,0.223,-1.058,8.118,-22.034,-3.113
-0.009,0.225,-0.991,7.568,-19.409,-3.418
0.002,0.231,-1.002,2.136,-8.484,-3.357
0.025,0.233,-1.029,1.526,-5.371,-4.456
0.037,0.220,-1.016,2.380,-8.911,-5.798
0.035,0.196,-0.979,2.686,-10.803,-5.188
0.028,0.189,-0.958,3.479,-8.789,-4.517
0.025,0.177,-0.937,2.808,-5.127,-3.845
0.022,0.181,-0.947,2.136,-0.183,-2.747
0.029,0.170,-0.941,2.502,-0.549,-2.563
0.031,0.164,-0.939,-0.244,-4.883,0.061
0.027,0.161,-0.960,-1.099,-6.592,0.854
0.027,0.154,-0.969,-0.122,-3.723,0.549
0.045,0.154,-0.994,-0.244,-0.061,0.305
0.053,0.160,-1.010,0.549,0.793,0.916
0.049,0.168,-1.006,1.465,-0.549,0.916
0.036,0.173,-0.995,0.916,-1.221,0.000
0.024,0.181,-0.995,0.061,-0.061,-0.427
0.026,0.182,-1.002,0.061,2.075,-0.549
0.025,0.182,-1.010,0.671,1.831,-0.671
0.026,0.181,-1.004,2.014,-1.953,-1.099
0.035,0.176,-0.988,1.892,-3.601,-0.916
0.031,0.183,-0.991,0.854,-2.136,-0.061
0.021,0.194,-1.006,1.343,-2.136,-0.610
0.032,0.186,-0.995,4.150,-5.432,-1.953
0.041,0.167,-0.958,4.028,-4.150,-0.671
0.030,0.176,-0.965,2.319,-1.038,0.916
0.016,0.184,-0.998,1.282,1.465,-0.244
0.022,0.178,-1.000,2.808,-1.038,-2.075
0.036,0.169,-0.983,5.554,-8.423,-3.113
0.045,0.170,-0.958,4.517,-8.911,-1.892
0.044,0.182,-0.971,1.343,-4.883,-1.892
0.050,0.192,-0.997,1.892,-4.150,-3.174
0.059,0.192,-0.993,6.042,-5.920,-5.005
0.073,0.172,-0.955,6.714,-3.418,-4.211
0.076,0.173,-0.963,1.038,4.150,-0.305
0.054,0.201,-1.005,-0.549,5.127,0.549
0.047,0.199,-1.004,0.549,1.892,-0.183
0.032,0.192,-0.987,0.854,0.488,-0.061
0.020,0.197,-0.984,1.038,0.732,-0.183
0.028,0.193,-0.982,1.282,0.793,-1.160
0.043,0.182,-0.977,1.099,2.380,-0.488
0.050,0.187,-0.984,0.061,2.991,0.671
0.044,0.193,-0.990,-1.160,0.122,0.183
0.036,0.184,-0.982,-1.343,-1.099,-0.244
0.038,0.179,-0.978,-2.380,1.709,1.221
0.055,0.183,-0.989,-2.869,3.845,2.380
0.062,0.188,-0.993,-1.709,4.211,4.089
0.045,0.193,-0.976,-0.854,3.052,4.517
0.034,0.193,-0.965,-1.160,1.587,3.723
0.016,0.198,-0.968,-1.160,2.441,3.052
0.016,0.193,-0.975,-1.038,4.089,0.916

-0.191,-0.225,-2.537,207.336,85.754,-47.852
-0.274,-0.275,-2.651,292.480,97.534,-73.425
-0.461,-0.406,-2.902,338.257,103.394,-81.665
-0.637,-0.391,-2.848,442.383,109.192,-102.844
-0.660,-0.360,-2.576,501.892,86.365,-121.826
-0.562,-0.469,-1.649,618.286,-34.241,-174.744
-0.394,-0.582,-1.072,657.837,-91.736,-200.073
0.088,-0.791,0.018,666.626,-136.719,-223.450
0.361,-0.799,0.471,572.144,-131.348,-188.477
0.805,-0.659,0.997,497.986,-118.469,-154.602
0.885,-0.559,1.072,395.996,-53.894,-72.571
0.778,-0.364,1.165,375.977,-21.912,-39.917
0.629,-0.268,1.227,334.839,-31.433,-21.729
0.278,-0.130,1.330,301.941,-81.360,-37.537
0.189,-0.101,1.433,217.834,-235.779,-91.980
0.165,-0.072,1.833,177.002,-280.762,-103.210
0.145,-0.046,1.992,104.431,-202.454,-62.744
0.071,0.083,1.990,68.909,-119.080,-28.442
0.037,0.161,1.864,-4.211,10.559,25.391
0.003,0.325,1.501,-41.199,40.344,42.358
-0.035,0.416,1.319,-102.600,49.988,50.964
-0.084,0.545,1.043,-129.089,40.527,40.466
-0.045,0.568,0.916,-178.711,13.062,11.963
0.108,0.573,0.680,-196.960,3.052,6.104
0.159,0.586,0.583,-215.759,8.179,16.357
0.183,0.630,0.451,-220.093,21.484,25.269
0.187,0.632,0.404,-236.999,42.236,37.537
0.194,0.620,0.264,-250.061,45.105,41.809
0.189,0.630,0.195,-274.780,44.678,44.556
0.215,0.614,0.025,-289.856,40.771,41.687
0.206,0.610,-0.075,-303.650,37.903,41.138
0.116,0.630,-0.195,-308.655,51.208,49.377
0.085,0.624,-0.226,-308.411,57.800,49.072
0.107,0.558,-0.299,-320.557,42.664,34.546
0.129,0.496,-0.346,-330.261,32.043,29.785
0.139,0.443,-0.411,-340.942,36.438,35.950
0.083,0.391,-0.571,-335.693,48.401,41.382
0.032,0.372,-0.634,-320.801,69.946,43.518
-0.042,0.296,-0.824,-325.439,77.576,38.574
-0.056,0.264,-0.980,-335.327,100.281,25.330
-0.062,0.225,-1.274,-318.909,105.347,20.447
-0.046,0.208,-1.341,-251.282,74.402,21.057
-0.010,0.149,-1.319,-222.473,37.842,28.259
-0.047,0.128,-1.285,-189.758,-24.841,39.063
-0.153,0.140,-1.247,-178.772,-31.677,35.339
-0.156,0.147,-1.248,-161.377,-12.390,16.296
-0.071,0.165,-1.271,-153.076,-8.179,9.705
-0.020,0.167,-1.254,-130.005,-24.231,11.353
-0.031,0.142,-1.186,-116.699,-35.583,12.268
-0.044,0.138,-1.148,-100.586,-23.621,4.333
-0.038,0.137,-1.189,-98.328,-4.089,-3.357
0.004,0.158,-1.214,-91.980,33.569,-12.390
0.118,0.150,-1.207,-86.609,29.907,-11.108
0.156,0.151,-1.175,-74.402,-20.752,-3.723
0.158,0.152,-1.021,-67.749,-44.312,2.441
0.109,0.121,-0.952,-63.660,-49.072,10.498
0.031,0.080,-1.079,-66.467,-19.714,7.690
0.075,0.066,-1.235,-60.181,44.739,-2.808
0.171,0.028,-1.368,-52.002,47.058,-4.700
0.177,0.011,-1.395,-30.945,5.066,5.615
-0.031,0.044,-1.779,-2.869,-16.907,15.625
-0.152,-0.062,-1.786,46.875,-88.257,11.658
-0.013,0.053,-0.948,13.977,-79.224,0.061
0.075,0.184,-0.897,-14.893,27.527,-4.761
0.207,0.163,-1.059,-7.874,43.152,-7.629
0.226,0.117,-1.049,5.310,-5.310,-1.221
0.097,0.129,-0.927,8.057,-25.146,3.723
0.045,0.149,-0.892,3.784,-18.677,2.869
0.070,0.139,-0.932,0.244,-4.089,-0.122
0.103,0.118,-0.981,-3.662,6.897,-1.221
0.108,0.099,-1.031,-1.831,1.831,-0.732
0.093,0.091,-1.016,1.953,-5.432,-1.038
0.071,0.092,-1.006,2.319,-4.700,-1.282
0.075,0.095,-1.005,3.784,-3.174,-2.014
0.079,0.090,-0.983,4.333,-2.808,-1.953
0.074,0.090,-0.984,3.174,0.488,-0.305
0.078,0.097,-0.995,2.808,1.587,0.366
0.079,0.103,-0.996,1.770,-0.671,0.916
0.068,0.114,-0.987,1.221,-1.465,0.854
0.067,0.110,-0.981,0.793,1.465,0.916
0.063,0.112,-0.996,0.549,2.808,1.526
0.060,0.117,-1.002,0.610,2.258,1.892
0.061,0.116,-0.994,2.136,-1.038,0.671
0.072,0.112,-0.978,2.075,-0.366,0.183
0.082,0.111,-0.985,0.427,3.235,0.122
0.108,0.104,-1.001,-0.122,3.357,0.000
0.100,0.105,-1.005,-0.610,2.625,0.671
0.064,0.114,-1.021,-0.244,3.967,1.831
0.068,0.102,-1.016,1.099,1.526,-0.122
0.074,0.095,-0.979,0.854,0.977,-0.244
0.063,0.098,-0.987,-0.183,5.005,2.502
0.046,0.108,-1.012,0.122,4.272,0.854
0.061,0.105,-0.991,3.174,-1.160,-1.038
0.079,0.083,-0.961,3.357,-3.540,-0.061
0.075,0.091,-0.993,1.038,-1.282,0.916
0.083,0.103,-1.024,1.221,-1.282,-0.122
0.087,0.106,-1.002,2.808,-4.578,-1.892
0.093,0.094,-0.959,3.479,-4.761,-2.075
0.088,0.094,-0.974,2.075,-2.319,0.427
0.074,0.116,-1.014,2.258,-2.258,0.732
0.079,0.112,-1.003,2.502,-5.981,-0.610
0.076,0.113,-1.004,2.380,-5.005,-0.366
0.075,0.116,-1.008,2.686,-2.014,-0.183
0.087,0.112,-1.000,2.625,-1.465,-0.977
0.083,0.114,-0.996,2.686,-3.052,-0.427
0.076,0.116,-0.993,3.113,-4.272,0.549
0.072,0.122,-0.985,3.052,-5.981,-0.549
0.078,0.115,-0.974,2.563,-3.174,-0.244
0.092,0.121,-0.986,1.770,1.343,0.488
0.099,0.125,-1.001,1.099,2.625,0.305
0.084,0.119,-1.003,0.854,0.793,0.183
0.073,0.120,-1.001,0.366,0.549,0.000
0.075,0.120,-0.995,0.549,0.122,-0.732
0.087,0.114,-0.987,0.122,-1.831,-0.854
0.088,0.121,-0.993,-0.549,-1.282,-0.183
0.087,0.121,-0.994,0.366,0.549,-0.610
0.093,0.115,-0.984,0.854,0.366,-0.732
0.090,0.119,-0.982,0.854,-0.732,-0.427
0.082,0.119,-0.978,1.099,-1.160,-0.732

-0.024,-0.420,2.229,143.555,-68.054,-70.740
0.020,-0.393,2.260,42.480,-23.071,-47.180
0.104,-0.196,1.923,-9.155,-2.808,-31.799
0.189,0.044,1.483,-88.013,21.912,-8.179
0.231,0.148,1.297,-139.648,32.471,3.662
0.290,0.298,1.012,-154.297,36.316,6.226
0.313,0.357,0.933,-170.410,32.410,8.301
0.337,0.421,0.878,-178.650,28.076,9.277
0.344,0.417,0.884,-212.524,13.428,8.362
0.418,0.363,0.829,-240.234,-0.366,3.723
0.494,0.326,0.707,-280.090,-28.381,3.601
0.557,0.355,0.552,-273.743,-30.701,16.663
0.504,0.398,0.605,-260.925,-14.465,41.382
0.365,0.402,0.669,-280.640,-16.296,40.161
0.321,0.379,0.638,-342.529,-48.279,14.954
0.348,0.293,0.471,-368.164,-62.317,1.282
0.427,0.197,0.329,-384.338,-65.186,-4.822
0.430,0.102,0.244,-371.521,-31.494,33.630
0.309,0.133,0.286,-363.953,-5.554,62.378
0.137,0.104,0.213,-412.170,2.808,68.176
0.100,0.056,0.091,-448.730,-5.493,53.833
0.062,0.009,-0.074,-489.990,44.250,32.104
-0.024,-0.070,-0.511,-489.807,112.610,30.212
-0.069,-0.101,-0.745,-462.402,249.512,42.480
-0.098,-0.147,-1.267,-448.669,267.029,51.025
-0.044,-0.127,-1.555,-413.025,160.583,58.044
0.016,-0.111,-1.899,-372.620,82.886,55.847
-0.018,-0.176,-1.964,-285.828,4.517,45.959
-0.062,-0.178,-2.101,-256.104,-1.770,38.574
-0.042,-0.133,-2.179,-195.129,-0.916,16.113
-0.007,-0.042,-2.081,-159.241,13.733,9.644
-0.005,0.006,-1.963,-108.398,-4.883,8.911
-0.033,0.117,-1.735,-95.337,-38.391,8.728
-0.042,0.185,-1.566,-68.359,-66.223,7.080
-0.002,0.283,-1.181,-59.021,-66.833,7.080
0.025,0.296,-1.019,-53.528,-62.622,10.742
0.007,0.294,-0.842,-57.251,-47.363,10.498
-0.010,0.282,-0.855,-75.745,13.489,3.174
0.014,0.236,-1.019,-84.412,38.330,-0.732
0.052,0.210,-1.097,-89.966,38.574,-4.822
0.133,0.121,-1.141,-88.806,20.752,-3.113
0.147,0.086,-1.150,-87.524,-16.907,7.263
0.084,0.094,-1.246,-78.247,-24.170,11.292
0.054,0.139,-1.316,-41.321,-8.118,7.324
0.227,0.010,-1.758,-25.696,-13.306,10.071
0.221,-0.087,-1.458,6.165,-53.284,14.648
0.063,0.174,-0.858,5.066,-37.903,7.812
0.090,0.209,-0.890,-2.869,18.982,-1.160
0.148,0.113,-0.968,-1.526,16.968,-1.465
0.124,0.094,-0.983,-2.380,-8.606,5.737
0.054,0.098,-0.994,-1.465,-11.108,8.850
0.035,0.094,-0.997,0.061,-5.920,5.981
0.053,0.073,-1.004,-0.366,-5.127,1.343
0.076,0.063,-1.012,0.427,-7.996,-5.859
0.111,0.049,-1.022,2.380,-8.362,-6.042
0.120,0.058,-1.023,7.263,-8.423,-4.761
0.150,0.066,-1.004,8.911,-8.789,-4.211
0.158,0.070,-0.993,8.972,-8.118,-3.052
0.157,0.083,-0.982,8.667,-7.019,-2.258
0.145,0.090,-0.973,8.789,-2.930,-2.014
0.120,0.095,-0.967,8.179,1.892,-2.441
0.119,0.098,-0.978,7.446,7.629,-3.052
0.123,0.092,-0.999,7.751,4.761,-3.479
0.123,0.089,-1.000,9.094,-4.028,-4.089
0.124,0.092,-0.989,10.010,-5.920,-4.333
0.135,0.093,-0.985,10.437,-6.653,-4.944
0.146,0.097,-0.985,10.620,-4.395,-5.188
0.159,0.108,-0.978,10.315,-1.038,-4.883
0.156,0.119,-0.975,6.958,1.465,-4.089
0.156,0.125,-0.974,5.859,0.671,-3.906
0.156,0.129,-0.968,6.470,-0.061,-3.357
0.166,0.121,-0.946,6.653,0.366,-2.502
0.167,0.120,-0.942,4.578,2.258,0.305
0.143,0.128,-0.948,3.174,3.540,0.854
0.136,0.130,-0.953,0.488,6.775,-0.488
0.141,0.124,-0.965,-0.427,7.874,-0.610
0.138,0.122,-0.971,-0.977,5.920,-0.549
0.119,0.109,-0.980,-1.221,5.310,-1.160
0.115,0.099,-0.988,-1.526,9.766,-2.502
0.122,0.093,-1.026,-0.732,13.550,-2.930
0.131,0.093,-1.040,1.953,18.127,-2.563
0.147,0.093,-1.044,2.563,16.052,-1.953
0.145,0.102,-1.038,3.296,2.319,0.122
0.124,0.124,-1.007,4.517,-4.944,1.648
0.107,0.134,-0.987,6.775,-9.888,2.258
0.087,0.136,-0.953,6.714,-7.385,1.221
0.093,0.135,-0.943,4.333,0.671,-1.526
0.115,0.137,-0.957,2.075,5.188,-2.197
0.117,0.140,-0.970,-0.671,7.935,-2.075
0.126,0.118,-0.981,-0.732,5.005,-1.526
0.132,0.105,-0.985,-2.197,1.648,1.221
0.117,0.115,-1.011,-2.625,2.563,2.197
0.108,0.116,-1.017,0.000,4.761,0.305
0.107,0.100,-1.005,0.732,6.287,-0.610
0.106,0.102,-1.011,-0.366,7.935,-0.244
0.106,0.116,-1.026,0.366,7.324,-0.610
0.115,0.113,-1.008,2.930,3.235,-0.549
0.121,0.123,-0.963,1.953,0.061,1.038
0.106,0.142,-0.957,-0.610,-5.310,3.601
0.074,0.143,-0.947,-0.671,-4.211,2.991
0.073,0.132,-0.940,-0.977,-0.854,1.587
0.096,0.125,-0.957,-3.357,4.028,0.000
0.103,0.121,-0.968,-3.235,3.601,-0.427
0.107,0.111,-0.969,-2.319,0.122,-0.488
0.102,0.103,-0.966,-2.747,-0.854,0.305
0.097,0.105,-0.974,-3.906,-0.916,0.916
0.094,0.109,-0.999,-3.479,0.427,0.122
0.101,0.104,-1.003,-1.953,3.418,-0.977
0.113,0.098,-1.009,-1.770,3.052,-0.549
0.112,0.100,-1.013,-2.197,2.197,0.732
0.101,0.109,-1.019,-2.563,2.075,1.099
0.097,0.115,-1.024,-1.526,0.122,0.671
0.093,0.124,-1.017,-0.488,-0.916,0.122
0.094,0.124,-1.007,0.305,-0.610,-0.610
0.102,0.124,-0.995,0.122,0.366,-0.671
0.105,0.126,-0.994,0.061,1.160,-0.732
0.106,0.125,-0.989,0.488,0.671,-0.732
0.106,0.119,-0.980,0.732,-0.732,-0.244
0.105,0.115,-0.975,-0.061,-1.038,0.427

0.075,-0.251,-2.218,98.083,47.607,-5.920
-0.012,-0.218,-2.230,154.175,38.757,-12.085
-0.193,-0.211,-2.154,217.773,17.334,-32.776
-0.308,-0.269,-2.037,251.404,18.250,-49.866
-0.334,-0.283,-1.958,325.378,31.677,-86.975
-0.317,-0.311,-1.751,364.197,28.381,-104.858
-0.291,-0.319,-1.607,442.993,2.380,-133.545
-0.243,-0.268,-1.205,481.140,-8.728,-142.273
-0.132,-0.236,-0.781,535.767,-32.532,-153.870
-0.008,-0.240,-0.659,548.523,-45.532,-156.921
0.289,-0.264,-0.473,570.374,-41.199,-152.832
0.410,-0.279,-0.352,604.797,-9.827,-133.362
0.570,-0.297,-0.022,609.619,-6.287,-123.901
0.609,-0.310,0.148,599.487,-20.081,-115.662
0.631,-0.333,0.483,547.791,-87.952,-98.450
0.599,-0.320,0.648,517.639,-117.554,-91.309
0.494,-0.293,0.979,463.989,-128.662,-82.825
0.425,-0.279,1.125,439.697,-111.084,-74.951
0.272,-0.294,1.262,383.057,-71.289,-59.143
0.168,-0.334,1.340,358.093,-58.838,-55.420
0.076,-0.387,1.509,317.688,-41.321,-49.622
-0.114,-0.483,2.091,274.902,-35.034,-46.997
-0.173,-0.529,2.271,129.517,-29.236,-43.701
-0.047,-0.540,2.167,54.077,-30.090,-39.490
0.058,-0.433,1.904,-41.016,-14.954,-22.949
0.134,-0.126,1.451,-62.744,0.122,-19.226
0.187,-0.017,1.325,-115.295,-0.061,-28.381
0.352,0.083,1.133,-146.912,-10.193,-32.166
0.413,0.103,1.056,-192.749,-17.639,-25.269
0.471,0.133,0.928,-203.430,-12.085,-14.282
0.478,0.149,0.880,-212.524,7.568,18.921
0.459,0.211,0.840,-219.055,16.602,35.461
0.437,0.241,0.839,-255.432,18.921,54.565
0.358,0.292,0.770,-281.921,14.038,57.556
0.332,0.303,0.698,-321.472,15.869,60.364
0.341,0.299,0.512,-334.534,19.714,63.110
0.342,0.301,0.414,-347.168,28.198,76.721
0.291,0.316,0.339,-350.891,30.579,83.984
0.238,0.325,0.310,-381.042,8.789,84.045
0.154,0.332,0.222,-400.513,-8.728,76.782
0.143,0.322,0.164,-419.067,-18.311,68.481
0.103,0.251,-0.047,-453.918,12.939,62.622
0.074,0.204,-0.180,-466.797,46.936,67.871
-0.010,0.195,-0.526,-479.919,90.088,85.388
-0.043,0.248,-0.698,-471.069,93.201,86.365
-0.113,0.242,-0.928,-427.429,110.657,70.679
-0.160,0.217,-1.029,-407.104,133.484,61.523
-0.202,0.213,-1.141,-374.023,153.564,46.997
-0.214,0.202,-1.349,-354.309,132.507,39.246
-0.179,0.149,-1.408,-307.251,71.716,32.410
-0.099,0.046,-1.462,-285.217,45.349,37.476
-0.083,0.040,-1.483,-240.967,-18.066,46.082
-0.105,0.053,-1.492,-217.407,-49.988,43.579
-0.125,0.044,-1.482,-180.725,-65.063,24.475
-0.152,-0.031,-1.552,-169.800,-29.785,9.766
-0.111,-0.032,-1.577,-144.165,45.654,-7.874
0.014,-0.024,-1.616,-130.310,31.860,-8.118
0.082,-0.009,-1.581,-100.525,-64.697,5.859
0.116,0.049,-1.324,-80.933,-105.103,16.541
0.044,0.052,-1.169,-54.382,-98.816,20.569
-0.100,0.094,-1.118,-54.871,-48.096,6.104
-0.052,0.095,-1.177,-63.782,44.739,-18.250
0.105,0.077,-1.301,-62.683,46.326,-20.996
0.149,0.083,-1.294,-46.631,-16.663,-6.653
0.172,0.096,-1.149,-34.729,-49.255,4.822
0.132,0.098,-1.059,-21.606,-60.791,12.695
0.045,0.080,-1.054,-22.766,-27.649,7.202
0.070,0.064,-1.095,-26.062,43.274,-5.859
0.104,-0.012,-1.526,-20.935,42.297,-8.423
0.108,-0.051,-1.583,4.089,-16.052,-1.892
0.123,0.074,-1.026,9.399,-43.335,1.282
0.100,0.128,-0.884,5.066,-33.936,5.188
0.092,0.149,-0.904,3.418,-12.329,3.540
0.116,0.132,-0.933,-2.380,6.226,0.977
0.116,0.126,-0.993,-4.517,3.479,2.441
0.106,0.118,-1.004,-2.869,-5.371,3.296
0.095,0.086,-0.983,-0.916,-8.362,2.075
0.084,0.081,-0.973,0.122,-4.822,0.183
0.083,0.077,-0.990,-0.488,0.427,-1.282
0.099,0.066,-1.007,-0.793,5.371,-3.601
0.113,0.053,-1.025,-0.305,2.930,-3.113
0.108,0.054,-1.014,2.686,-3.601,-0.916
0.089,0.060,-0.981,3.540,-4.272,0.305
0.080,0.070,-0.980,2.625,-2.563,0.549
0.082,0.077,-0.979,2.380,-1.526,-0.244
0.092,0.069,-0.975,1.831,1.099,-0.854
0.097,0.072,-0.999,1.709,3.357,-0.488
0.099,0.077,-1.007,2.625,4.944,-0.366
0.104,0.083,-0.998,5.615,2.991,-0.671
0.093,0.088,-0.980,5.432,2.197,-0.427
0.080,0.098,-0.989,5.188,3.357,-1.099
0.077,0.085,-1.005,6.165,2.747,-2.136
0.092,0.075,-1.002,7.019,-1.038,-2.258
0.075,0.086,-1.025,6.470,-0.793,-1.709
0.063,0.093,-1.038,6.897,0.610,-3.174
0.092,0.087,-1.005,7.141,-1.831,-4.395
0.116,0.075,-0.972,4.089,-4.883,-2.991
0.103,0.090,-0.970,1.831,-1.221,-1.099
0.092,0.098,-0.989,-0.061,4.150,-1.099
0.106,0.074,-1.004,0.427,2.441,-1.709
0.102,0.072,-1.004,0.305,0.183,0.488
0.069,0.092,-1.012,0.610,1.038,0.854
0.073,0.092,-1.002,2.319,0.610,-1.160
0.111,0.071,-0.961,1.465,-0.793,-0.916
0.102,0.082,-0.975,-2.258,-0.549,1.770
0.074,0.103,-1.014,-1.831,-0.305,0.977
0.070,0.103,-1.010,0.183,-1.770,-2.441
0.095,0.088,-0.986,-0.732,-2.625,-3.967
0.116,0.076,-0.984,-2.380,-2.441,-2.869
0.111,0.089,-0.993,-1.648,-0.854,-1.038
0.105,0.089,-0.995,0.549,-1.221,0.061
0.083,0.080,-0.996,1.526,-1.648,0.427
0.073,0.081,-0.994,2.380,-1.343,0.183
0.075,0.087,-0.994,1.526,0.122,-0.122
0.086,0.094,-0.997,-0.061,3.052,0.122
0.097,0.098,-0.995,0.244,1.465,-0.366
0.099,0.093,-0.986,0.793,-2.747,-0.916
0.099,0.094,-0.978,1.282,-3.540,-0.793
0.098,0.092,-0.981,2.686,-0.671,-0.732

-0.093,-0.214,-2.502,160.950,64.819,-65.186
-0.036,-0.240,-2.712,223.145,100.769,-76.477
-0.058,-0.057,-2.845,263.855,86.609,-72.449
-0.119,0.023,-2.719,365.967,24.048,-76.355
-0.188,0.008,-2.177,455.261,1.404,-103.516
-0.087,-0.042,-1.570,484.497,5.249,-114.502
-0.003,-0.050,-1.318,501.221,6.592,-119.385
0.174,-0.061,-0.963,491.821,0.183,-114.563
0.235,-0.037,-0.826,469.421,0.305,-94.482
0.302,0.018,-0.580,460.754,6.592,-86.487
0.315,0.010,-0.473,443.542,-2.441,-83.191
0.308,-0.064,-0.277,438.843,-19.714,-82.642
0.290,-0.103,-0.146,438.599,-39.978,-71.106
0.283,-0.128,0.114,429.687,-38.757,-63.293
0.308,-0.117,0.211,393.677,-33.142,-50.415
0.391,-0.135,0.349,379.333,-37.354,-45.105
0.411,-0.158,0.421,371.277,-53.040,-32.043
0.345,-0.135,0.617,370.422,-51.636,-24.475
0.280,-0.091,0.745,357.605,-25.208,-14.771
0.164,-0.055,1.044,336.670,-18.250,-12.573
0.129,-0.066,1.173,268.860,-37.415,-13.489
0.055,-0.153,1.337,237.671,-51.636,-17.029
-0.019,-0.197,1.467,200.684,-63.782,-26.367
-0.173,-0.230,1.798,176.575,-68.726,-36.499
-0.190,-0.242,1.873,95.520,-77.759,-57.922
-0.122,-0.212,1.787,52.002,-70.984,-58.228
-0.058,-0.162,1.667,-19.897,-31.494,-39.612
0.075,0.000,1.364,-48.340,-6.897,-26.550
0.114,0.105,1.228,-93.506,27.344,-6.165
0.172,0.301,1.018,-111.633,32.959,-3.113
0.196,0.353,0.939,-142.273,20.569,-7.507
0.209,0.379,0.845,-154.358,5.188,-10.742
0.208,0.372,0.839,-167.969,-23.010,-15.564
0.219,0.348,0.907,-174.622,-32.104,-17.273
0.231,0.332,0.932,-201.965,-42.480,-17.334
0.254,0.324,0.900,-218.079,-41.260,-14.099
0.243,0.343,0.866,-244.934,-21.423,1.038
0.195,0.388,0.764,-258.240,-8.118,9.277
0.173,0.403,0.694,-273.193,2.258,15.869
0.153,0.416,0.619,-308.289,11.230,22.644
0.167,0.431,0.448,-329.834,11.963,21.423
0.192,0.432,0.327,-375.671,11.169,17.090
0.198,0.439,0.047,-386.230,12.817,20.386
0.175,0.457,-0.033,-374.573,23.193,41.260
0.081,0.485,-0.097,-371.399,23.071,50.903
0.031,0.482,-0.130,-392.700,6.958,50.903
-0.040,0.459,-0.314,-412.659,5.005,40.771
-0.068,0.445,-0.443,-438.293,41.138,13.123
-0.016,0.369,-0.691,-441.040,63.538,2.930
0.032,0.315,-0.826,-424.011,84.595,10.010
-0.011,0.282,-1.089,-398.743,95.642,26.123
-0.072,0.303,-1.187,-334.778,110.107,44.189
-0.082,0.270,-1.335,-307.617,92.896,37.537
-0.004,0.205,-1.375,-265.625,9.888,21.851
0.052,0.128,-1.421,-249.878,-29.114,24.597
0.004,0.135,-1.443,-218.384,-54.687,31.372
-0.096,0.140,-1.473,-200.989,-42.725,25.269
-0.068,0.125,-1.460,-168.091,-14.038,3.601
0.031,0.086,-1.490,-154.907,-3.967,-6.409
0.086,0.110,-1.447,-121.460,7.935,-8.179
0.159,0.173,-1.289,-105.530,-14.648,-2.075
0.166,0.186,-1.205,-89.172,-82.520,11.230
0.062,0.185,-1.058,-82.886,-88.257,14.038
0.019,0.173,-1.018,-80.383,-24.902,0.000
0.080,0.142,-1.087,-84.045,14.099,-9.094
0.128,0.119,-1.171,-82.520,36.316,-16.418
0.169,0.096,-1.295,-76.050,22.827,-14.771
0.189,0.078,-1.330,-50.354,-9.888,-4.333
0.193,0.020,-1.323,-36.560,-17.273,0.488
0.181,0.028,-1.283,-27.588,-9.399,2.380
0.187,0.038,-1.304,-24.780,-3.357,4.333
0.194,0.038,-1.336,-17.395,0.549,0.916
0.112,0.084,-1.390,-9.583,2.747,1.282
0.045,0.094,-1.352,0.244,-2.869,2.808
0.036,0.108,-1.204,6.592,-19.653,0.732
0.078,0.166,-0.974,3.723,-16.113,1.099
0.073,0.191,-0.956,1.465,-2.380,-1.343
0.091,0.161,-0.938,0.671,-1.160,-3.845
0.097,0.144,-0.940,-3.357,-2.258,-3.052
0.095,0.143,-0.965,-3.784,-1.160,-1.282
0.095,0.139,-0.975,-1.526,0.000,-1.343
0.123,0.114,-0.972,-0.732,-1.770,-2.991
0.139,0.098,-0.969,-1.709,-5.371,-4.089
0.129,0.084,-0.980,-1.831,-4.395,-2.747
0.117,0.079,-0.985,-1.038,0.793,-0.610
0.101,0.082,-1.009,-0.610,3.235,0.549
0.091,0.096,-1.014,1.648,3.174,1.587
0.090,0.109,-0.990,2.319,0.183,1.038
0.094,0.108,-0.974,2.014,-3.357,0.732
0.093,0.099,-0.958,0.977,-1.282,1.282
0.088,0.110,-0.971,-2.136,6.165,2.808
0.089,0.127,-1.000,-2.258,6.653,2.319
0.093,0.123,-1.001,-1.038,2.258,0.000
0.092,0.116,-0.993,-0.671,1.221,-0.305
0.092,0.111,-0.990,-0.183,0.793,-0.854
0.097,0.096,-0.992,-0.549,1.099,-0.793
0.093,0.100,-1.001,-0.671,1.953,-0.061
0.096,0.102,-1.012,0.244,1.648,-0.122
0.103,0.098,-1.013,1.831,0.671,-0.122
0.115,0.105,-1.001,2.502,0.610,-0.488
0.118,0.104,-0.986,2.258,-0.916,-0.488
0.109,0.109,-0.982,1.038,-1.221,0.305
0.100,0.113,-0.985,0.549,-0.854,0.244
0.101,0.099,-0.979,0.488,-0.671,-0.366
0.101,0.097,-0.988,-0.854,2.441,0.000
0.091,0.115,-1.013,-0.122,2.869,0.000
0.093,0.114,-1.008,1.526,0.854,-0.854
0.102,0.097,-0.978,2.441,-3.174,-1.587
0.098,0.104,-0.981,1.038,-2.258,-0.610
0.092,0.115,-0.992,0.793,-0.122,-0.488
0.108,0.123,-0.994,2.258,-1.160,-1.587
0.122,0.117,-0.978,4.333,-3.967,-2.686
0.121,0.099,-0.953,3.601,-2.502,-1.587
0.111,0.107,-0.961,0.610,3.845,0.854
0.104,0.113,-0.986,0.183,4.639,0.488
0.100,0.097,-1.000,-1.648,3.113,1.160
0.055,0.101,-1.058,-1.892,2.869,2.136
0.051,0.108,-1.056,1.648,-0.671,0.549
0.097,0.109,-0.984,2.441,-3.113,-0.305

-0.113,-0.130,-2.762,143.555,167.358,-73.547
-0.185,-0.100,-2.885,218.262,103.027,-76.965
-0.367,-0.062,-2.833,269.043,78.857,-82.703
-0.438,-0.055,-2.698,371.338,85.266,-107.300
-0.507,-0.019,-2.338,413.696,95.154,-121.399
-0.505,-0.020,-2.126,476.074,61.829,-147.766
-0.443,-0.097,-1.598,502.258,16.602,-160.645
-0.387,-0.172,-1.304,551.331,-72.083,-183.350
-0.177,-0.390,-0.702,573.669,-91.248,-187.927
-0.046,-0.480,-0.419,583.313,-77.393,-169.373
0.227,-0.558,-0.055,563.538,-56.274,-150.757
0.434,-0.471,0.036,514.648,3.296,-108.948
0.488,-0.438,0.062,505.249,32.654,-89.478
0.488,-0.395,0.098,499.878,63.293,-62.256
0.414,-0.333,0.196,496.521,60.974,-62.439
0.392,-0.345,0.331,476.379,15.198,-85.510
0.366,-0.414,0.753,445.862,-27.649,-96.558
0.336,-0.442,0.962,370.300,-100.281,-108.459
0.244,-0.550,1.408,339.600,-112.244,-110.291
0.180,-0.626,1.667,281.128,-104.675,-102.600
0.040,-0.727,2.173,241.089,-94.727,-94.971
0.004,-0.718,2.316,114.197,-87.830,-82.642
0.060,-0.559,2.153,39.551,-86.426,-75.134
0.140,-0.439,1.909,-66.833,-53.101,-43.396
0.252,-0.189,1.426,-96.741,-30.212,-20.447
0.260,-0.046,1.246,-139.221,4.822,21.423
0.234,0.232,0.985,-153.809,17.395,35.034
0.217,0.332,0.899,-176.880,24.963,45.288
0.201,0.430,0.770,-190.491,14.526,43.335
0.195,0.458,0.722,-212.158,-17.822,35.339
0.184,0.489,0.710,-218.872,-29.236,32.043
0.193,0.486,0.733,-244.812,-43.823,26.489
0.223,0.493,0.719,-266.541,-48.401,25.757
0.217,0.503,0.667,-305.786,-45.288,32.593
0.176,0.495,0.486,-314.209,-37.842,39.490
0.143,0.505,0.432,-311.707,-19.287,53.040
0.105,0.509,0.384,-316.223,-13.611,54.199
0.097,0.504,0.326,-345.825,-13.000,50.049
0.089,0.503,0.194,-362.915,-12.634,48.035
0.080,0.483,0.137,-384.521,-13.000,45.044
0.064,0.403,-0.110,-439.331,-21.240,38.391
0.052,0.386,-0.281,-452.881,-20.264,39.917
-0.021,0.424,-0.536,-413.757,27.771,57.373
-0.063,0.452,-0.585,-377.136,58.899,65.247
-0.109,0.455,-0.668,-339.783,63.721,63.477
-0.117,0.442,-0.768,-340.210,40.100,56.091
-0.135,0.432,-0.901,-325.806,21.667,40.100
-0.222,0.410,-1.140,-303.345,44.128,32.227
-0.221,0.371,-1.215,-261.597,75.317,19.165
-0.079,0.318,-1.307,-252.136,46.631,17.395
-0.015,0.310,-1.336,-231.934,-58.777,26.794
-0.076,0.290,-1.318,-209.900,-88.318,31.738
-0.136,0.274,-1.270,-166.016,-58.167,23.560
-0.104,0.243,-1.209,-158.508,-30.945,12.390
-0.038,0.226,-1.243,-161.194,-15.320,2.991
0.024,0.207,-1.313,-156.982,-23.315,7.568
-0.007,0.205,-1.307,-133.118,-45.105,15.747
-0.088,0.208,-1.258,-118.835,-44.556,10.681
-0.083,0.198,-1.176,-97.229,-13.245,-5.005
-0.005,0.168,-1.105,-96.375,-8.911,-9.033
0.027,0.166,-1.144,-96.802,-25.940,-3.967
0.008,0.121,-1.206,-88.379,-30.029,0.854
-0.014,0.098,-1.211,-66.711,-22.766,-0.854
0.019,0.071,-1.196,-61.340,-18.494,-6.165
0.079,0.081,-1.194,-59.998,-22.156,-11.475
0.150,0.123,-1.209,-56.030,-26.245,-10.071
0.145,0.135,-1.184,-37.659,-24.536,-7.141
0.122,0.095,-1.094,-32.166,-19.226,-3.479
0.111,0.082,-1.076,-32.349,-10.803,0.916
0.091,0.099,-1.145,-33.020,-5.920,0.000
0.105,0.095,-1.198,-23.987,9.766,-3.174
0.152,0.069,-1.224,-18.005,9.766,-3.174
0.149,0.072,-1.217,-10.376,-2.441,1.770
0.108,0.090,-1.176,-5.859,-4.822,5.005
0.104,0.087,-1.159,-1.831,-9.644,3.784
0.091,0.109,-1.084,-1.465,-9.521,2.686
0.077,0.117,-1.044,-0.610,-6.897,2.258
0.068,0.115,-1.000,-0.854,-5.432,1.831
0.065,0.111,-0.985,-2.686,-4.700,0.183
0.057,0.109,-0.975,-3.723,-5.859,-1.221
0.057,0.107,-0.972,-2.808,-3.723,-2.869
0.070,0.108,-0.970,-2.380,-0.610,-2.686
0.080,0.107,-0.979,-1.160,2.136,-1.587
0.086,0.105,-0.981,-0.305,1.526,-0.916
0.082,0.101,-0.976,-0.244,-0.916,-1.282
0.081,0.084,-0.994,-0.916,0.244,-1.465
0.079,0.083,-1.017,-1.221,5.554,-0.916
0.067,0.093,-1.030,-0.183,5.066,-0.977
0.062,0.092,-1.021,1.221,1.038,-0.366
0.046,0.104,-1.011,1.343,0.488,-0.305
0.047,0.105,-1.004,1.953,0.061,-1.526
0.064,0.094,-1.000,1.404,-0.183,-1.160
0.060,0.100,-1.010,1.038,1.099,-0.122
0.057,0.100,-1.000,1.892,0.732,-0.854
0.066,0.088,-0.987,1.526,-0.977,-1.221
0.068,0.102,-0.991,0.671,0.610,-0.427
0.068,0.108,-0.995,0.610,2.563,-0.305
0.078,0.093,-0.991,1.038,2.808,-1.587
0.077,0.094,-0.993,0.854,3.113,-1.343
0.071,0.103,-0.995,1.709,3.296,-0.793
0.057,0.109,-0.982,2.502,2.136,-1.465
0.056,0.101,-0.974,1.099,2.197,-1.892
0.048,0.112,-0.992,-0.061,4.028,-1.892
0.058,0.115,-1.000,0.183,3.601,-4.028
0.102,0.072,-0.993,-0.366,1.770,-3.845
0.093,0.068,-1.000,-2.686,2.625,0.305
0.056,0.102,-1.027,-1.770,3.601,0.671
0.054,0.106,-1.021,2.747,0.427,-1.465
0.059,0.089,-0.981,3.845,-1.526,-1.770
0.054,0.089,-0.973,1.831,1.099,-0.183
0.050,0.112,-0.991,1.404,3.052,-0.244
0.057,0.119,-0.998,3.967,0.610,-2.502
0.066,0.121,-0.986,5.432,-2.136,-3.479
0.065,0.124,-0.977,6.775,-4.211,-4.150
0.057,0.118,-0.961,7.812,-2.380,-1.892
0.071,0.084,-0.962,3.235,3.967,1.648
0.079,0.073,-1.040,-2.136,5.249,0.305
0.052,0.098,-1.092,-1.160,5.249,-1.343
0.037,0.105,-1.056,2.258,2.075,-2.380

0.006,-0.679,2.109,48.096,-26.611,-55.420
0.075,-0.512,1.818,-63.660,10.254,-7.080
0.154,-0.195,1.219,-104.797,14.648,8.118
0.192,0.050,0.871,-147.705,15.320,19.165
0.215,0.135,0.817,-156.128,14.771,18.127
0.251,0.237,0.802,-174.072,2.014,12.268
0.262,0.259,0.810,-196.777,-10.803,11.780
0.287,0.263,0.820,-210.144,-14.893,14.465
0.306,0.259,0.785,-238.281,-22.644,23.132
0.343,0.303,0.671,-246.521,-22.766,29.968
0.338,0.341,0.644,-253.479,-15.808,43.396
0.291,0.394,0.655,-262.817,-17.151,47.363
0.256,0.406,0.641,-304.871,-33.325,49.561
0.182,0.415,0.493,-327.515,-38.940,47.729
0.174,0.408,0.359,-347.351,-34.790,51.697
0.136,0.465,0.191,-342.895,-24.353,63.721
0.075,0.504,0.162,-349.609,-5.005,84.167
-0.040,0.571,0.014,-369.080,-4.578,83.801
-0.068,0.582,-0.098,-402.100,-17.029,66.406
-0.093,0.567,-0.286,-406.128,-17.883,56.702
-0.092,0.526,-0.358,-410.400,6.531,50.232
-0.120,0.447,-0.565,-416.260,19.714,53.589
-0.127,0.450,-0.689,-410.400,9.155,53.833
-0.091,0.438,-0.880,-395.081,-11.414,48.340
-0.094,0.413,-0.946,-359.436,-18.494,40.649
-0.141,0.328,-1.111,-346.497,-1.404,39.429
-0.162,0.290,-1.236,-327.148,26.489,35.400
-0.117,0.255,-1.465,-311.035,17.700,31.006
-0.086,0.240,-1.531,-257.324,-38.940,25.024
-0.115,0.200,-1.501,-224.060,-60.059,24.353
-0.127,0.177,-1.449,-177.856,-67.627,18.738
-0.107,0.172,-1.403,-166.382,-61.218,12.573
-0.076,0.165,-1.414,-141.174,-38.452,-4.211
0.044,0.197,-1.327,-125.916,-20.813,-11.658
0.093,0.191,-1.235,-99.060,-19.836,0.427
0.073,0.163,-1.181,-94.788,-39.185,8.667
0.051,0.172,-1.198,-93.872,-45.410,10.925
0.033,0.217,-1.183,-89.172,-34.424,9.766
0.036,0.217,-1.159,-74.097,-24.292,5.432
0.057,0.167,-1.138,-70.007,-23.987,3.723
0.066,0.133,-1.165,-70.190,-14.893,3.906
0.077,0.109,-1.240,-68.665,-10.620,3.906
0.070,0.101,-1.287,-54.321,-11.780,0.244
0.073,0.108,-1.296,-43.152,-9.338,-1.404
0.117,0.140,-1.591,-25.391,-36.133,4.089
0.170,-0.073,-1.722,-7.812,-72.388,8.362
0.070,0.020,-1.148,15.259,-43.213,4.761
0.044,0.238,-0.832,5.066,9.338,0.671
0.119,0.218,-0.957,-5.798,36.499,-5.676
0.167,0.142,-1.049,-11.597,5.249,-3.662
0.119,0.131,-1.018,-10.315,-16.785,5.127
0.031,0.149,-0.937,-4.944,-26.489,11.963
0.030,0.160,-0.916,-3.174,-17.883,8.545
0.047,0.162,-0.914,-3.662,5.127,0.488
0.095,0.132,-0.939,-5.554,10.742,-0.977
0.106,0.119,-0.958,-6.470,3.601,-1.648
0.109,0.119,-0.977,-3.479,-1.404,-2.319
0.115,0.116,-0.965,1.892,-1.892,-2.930
0.123,0.105,-0.961,0.916,0.305,-1.892
0.119,0.109,-0.977,-1.953,3.845,1.038
0.091,0.126,-0.991,-1.038,4.333,1.526
0.083,0.128,-0.987,2.319,3.601,-0.183
0.093,0.122,-0.975,3.418,3.418,-1.282
0.101,0.116,-0.973,3.967,4.517,-1.099
0.090,0.108,-0.984,3.601,6.592,0.122
0.075,0.110,-0.996,2.930,9.888,0.610
0.076,0.113,-1.017,2.563,8.484,-0.427
0.087,0.115,-1.021,3.662,3.235,-0.488
0.081,0.126,-1.008,4.761,1.404,0.671
0.072,0.132,-0.994,4.211,0.854,1.526
0.063,0.145,-0.988,2.808,1.709,0.916
0.061,0.151,-0.990,2.014,2.563,-1.465
0.062,0.143,-0.983,2.686,2.319,-2.625
0.069,0.135,-0.976,2.808,1.526,-3.906
0.086,0.129,-0.978,1.831,1.221,-4.211
0.095,0.123,-0.982,0.916,2.380,-3.235
0.103,0.124,-0.992,0.488,3.113,-1.831
0.097,0.135,-0.999,1.038,1.282,-1.404
0.093,0.127,-0.990,2.136,0.549,-1.892
0.098,0.121,-0.983,2.502,0.488,-1.526
0.082,0.145,-0.988,2.014,0.366,0.366
0.070,0.152,-0.990,2.625,0.305,-0.061
0.066,0.144,-0.983,4.639,2.502,-2.380
0.077,0.126,-0.966,3.418,3.967,-2.075
0.074,0.136,-0.977,-0.916,1.831,-1.099
0.060,0.156,-0.995,-0.305,0.610,-2.014
0.059,0.150,-0.989,3.113,1.526,-4.639
0.080,0.127,-0.985,3.174,2.747,-4.700
0.091,0.126,-1.023,0.732,-0.366,-2.197
0.087,0.134,-1.073,2.258,-3.540,-2.014
0.085,0.132,-1.019,5.310,0.305,-2.197
0.089,0.142,-0.953,2.625,3.662,-1.648
0.091,0.150,-0.972,-0.977,4.456,-1.526
0.099,0.134,-0.984,-0.305,3.418,-0.793
0.092,0.131,-0.976,-0.488,-0.427,2.563
0.054,0.142,-0.990,-0.671,-0.916,3.357
0.040,0.142,-1.003,0.793,2.441,1.404
0.045,0.130,-1.000,1.160,2.869,-0.122
0.057,0.128,-0.988,0.732,0.305,-1.343
0.076,0.129,-0.978,0.183,-1.160,-0.854
0.075,0.129,-0.987,0.122,-2.136,0.793
0.068,0.135,-1.003,1.160,-1.770,1.526
0.067,0.140,-0.999,3.113,-2.075,1.953
0.070,0.147,-0.984,3.357,-1.831,1.831
0.068,0.150,-0.984,2.747,-0.854,1.526
0.058,0.145,-0.988,2.502,-1.404,0.977
0.059,0.137,-0.988,1.587,-0.854,-0.061
0.067,0.137,-0.997,0.610,-0.183,-0.183
0.073,0.141,-0.998,0.244,0.122,-0.793
0.093,0.142,-0.988,0.610,0.366,-0.671
0.098,0.143,-0.989,0.732,0.793,-0.122
0.097,0.141,-0.983,0.793,0.671,0.122
0.091,0.142,-0.982,0.488,0.183,1.221
0.070,0.148,-0.992,0.427,0.000,1.160
0.065,0.146,-0.995,0.488,0.122,0.610
0.064,0.145,-0.995,0.732,0.732,-0.366
0.069,0.143,-0.988,0.977,0.671,-0.671
0.074,0.138,-0.981,0.488,0.549,-0.366
0.079,0.135,-0.987,-0.183,0.061,0.122

-0.145,0.205,-2.420,182.495,180.786,-70.679
-0.213,0.264,-2.408,251.831,123.474,-76.599
-0.278,0.239,-2.191,279.480,73.975,-83.801
-0.308,0.193,-1.985,324.951,33.325,-95.703
-0.322,0.209,-1.915,344.849,52.490,-100.220
-0.370,0.236,-1.815,371.887,106.812,-109.070
-0.423,0.234,-1.792,382.446,118.286,-119.446
-0.506,0.192,-1.786,389.954,104.797,-132.751
-0.505,0.163,-1.724,433.044,57.251,-167.053
-0.378,0.020,-1.400,467.163,30.396,-183.105
-0.214,-0.092,-1.178,525.757,-9.338,-209.717
0.213,-0.347,-0.696,545.593,-15.930,-212.158
0.394,-0.459,-0.464,556.885,-2.869,-181.396
0.570,-0.557,-0.089,547.913,12.390,-154.785
0.602,-0.569,0.048,515.076,33.875,-113.770
0.631,-0.602,0.261,500.183,32.898,-103.455
0.624,-0.631,0.388,473.022,8.728,-96.558
0.510,-0.708,0.760,456.177,-14.587,-99.487
0.426,-0.784,1.036,403.137,-80.261,-118.774
0.279,-1.006,1.704,361.633,-118.347,-127.869
0.213,-1.117,2.055,263.428,-159.058,-130.493
0.108,-1.212,2.624,203.674,-153.870,-124.573
0.114,-1.160,2.703,131.409,-135.559,-112.976
0.205,-0.893,2.248,-32.715,-74.341,-62.866
0.210,-0.726,1.844,-100.952,-41.565,-26.672
0.088,-0.406,1.253,-183.899,6.775,31.372
0.050,-0.266,1.106,-210.388,17.883,41.687
0.062,-0.156,1.011,-260.498,8.301,29.358
0.182,-0.011,0.903,-286.194,-9.644,20.203
0.240,0.034,0.878,-339.416,-41.138,22.034
0.237,0.071,0.766,-368.225,-43.152,30.457
0.199,0.090,0.649,-414.917,-18.921,48.767
0.197,0.204,0.339,-423.523,-3.723,58.960
0.194,0.296,0.254,-417.908,14.282,80.566
0.150,0.425,0.161,-424.561,11.169,83.923
0.134,0.441,0.068,-462.036,-14.404,68.115
0.106,0.440,-0.183,-475.342,-27.344,54.932
0.094,0.451,-0.307,-477.844,-26.733,39.978
0.078,0.442,-0.557,-474.731,-9.155,41.321
0.066,0.413,-0.668,-463.135,24.719,56.580
0.006,0.401,-0.921,-452.942,25.879,63.232
-0.030,0.432,-1.063,-404.297,19.348,58.044
-0.081,0.385,-1.261,-367.371,31.799,49.683
-0.080,0.324,-1.326,-310.364,58.228,39.490
-0.040,0.269,-1.474,-294.067,43.701,38.635
-0.017,0.264,-1.523,-252.747,-28.259,38.940
-0.029,0.192,-1.536,-224.243,-54.932,41.443
-0.091,0.165,-1.520,-197.510,-56.458,44.556
-0.167,0.191,-1.508,-164.124,-15.930,36.072
-0.141,0.203,-1.522,-155.579,-6.042,22.156
-0.002,0.217,-1.502,-133.362,-21.606,0.916
0.021,0.218,-1.449,-114.441,-34.546,1.770
-0.020,0.227,-1.286,-80.322,-41.443,9.399
-0.031,0.239,-1.222,-74.768,-38.330,7.935
-0.010,0.269,-1.151,-73.730,-22.400,-1.038
0.092,0.271,-1.036,-73.669,-22.766,-2.747
0.114,0.244,-1.024,-73.303,-27.832,0.488
0.064,0.234,-1.036,-66.467,-14.648,0.610
0.052,0.235,-1.041,-51.208,19.226,-4.883
0.079,0.194,-1.079,-48.462,22.461,-8.179
0.094,0.165,-1.107,-45.227,12.451,-7.263
0.082,0.140,-1.135,-42.847,9.460,-4.211
0.077,0.141,-1.141,-38.330,8.057,-1.404
0.072,0.162,-1.159,-34.851,8.972,-1.526
0.073,0.167,-1.155,-24.109,10.071,-1.770
0.057,0.155,-1.122,-19.592,7.690,-1.831
0.048,0.155,-1.107,-14.587,-1.892,-1.648
0.034,0.168,-1.100,-12.695,-4.883,-1.282
0.033,0.173,-1.093,-8.423,-2.502,-2.136
0.047,0.175,-1.085,-7.080,-1.892,-2.747
0.043,0.175,-1.084,-3.113,-3.906,-3.296
0.027,0.164,-1.063,-0.793,-3.296,-3.784
0.029,0.156,-1.056,1.282,1.709,-4.883
0.057,0.144,-1.048,1.526,2.686,-4.822
0.060,0.146,-1.050,2.747,-0.305,-2.686
0.044,0.166,-1.040,4.944,-1.770,-2.014
0.039,0.166,-1.020,8.667,-3.296,-2.808
0.051,0.156,-0.979,8.423,-3.784,-3.113
0.060,0.160,-0.970,4.944,-3.540,-2.319
0.067,0.167,-0.957,3.357,-2.563,-1.404
0.063,0.169,-0.954,2.502,-1.160,-0.366
0.047,0.175,-0.956,2.136,1.221,0.488
0.045,0.175,-0.956,2.014,1.282,-0.061
0.050,0.172,-0.953,1.343,1.404,-0.732
0.058,0.164,-0.962,0.366,1.953,-0.244
0.051,0.162,-0.975,-0.244,2.747,0.305
0.049,0.154,-0.987,-0.671,2.075,0.549
0.050,0.153,-0.996,-2.197,-1.892,2.014
0.036,0.163,-0.995,-0.916,-2.136,1.770
0.036,0.160,-0.982,1.343,1.953,0.366
0.038,0.161,-0.985,0.732,3.906,0.427
0.030,0.171,-0.995,0.610,4.944,0.244
0.027,0.167,-0.982,0.732,3.479,-0.549
0.031,0.163,-0.976,-2.014,0.183,-0.122
0.025,0.180,-0.990,-2.136,0.671,0.061
0.027,0.177,-0.992,-0.183,2.686,-1.526
0.037,0.171,-0.990,0.122,2.747,-1.709
0.034,0.173,-0.991,0.610,2.441,-1.282
0.034,0.165,-0.987,0.671,1.953,-1.648
0.038,0.160,-0.987,0.183,1.221,-1.526
0.035,0.173,-0.996,-0.732,1.160,0.061
0.032,0.176,-0.999,-0.427,1.892,0.244
0.033,0.169,-1.004,0.366,2.014,-0.549
0.031,0.171,-1.005,1.038,1.587,-0.977
0.030,0.172,-1.001,2.625,1.343,-1.709
0.040,0.158,-0.997,2.380,1.404,-1.892
0.048,0.159,-0.999,0.977,2.502,-0.732
0.053,0.168,-1.004,0.610,1.587,0.488
0.048,0.170,-1.006,1.892,-0.183,0.732
0.034,0.170,-0.988,2.869,0.061,0.671
0.026,0.174,-0.983,2.502,-0.305,0.610
0.021,0.178,-0.983,2.319,0.366,0.244
0.024,0.175,-0.982,1.892,1.648,-0.671
0.031,0.170,-0.992,1.343,1.709,-0.610
0.029,0.172,-0.998,1.770,3.174,-0.061
0.028,0.175,-0.997,2.258,3.662,-0.122
0.031,0.177,-0.992,2.563,2.869,-0.244
0.033,0.181,-0.980,2.502,-0.122,0.061
0.029,0.182,-0.976,2.197,-0.061,0.305

-0.412,0.046,-2.656,33.997,217.957,-47.546
-0.433,-0.042,-3.066,99.304,164.856,-85.388
-0.416,-0.131,-3.052,222.351,64.575,-110.046
-0.405,-0.251,-2.673,281.006,27.405,-116.394
-0.406,-0.258,-2.427,367.859,2.380,-129.883
-0.348,-0.226,-1.911,401.489,1.770,-138.977
-0.274,-0.294,-1.440,455.627,-15.503,-151.123
-0.247,-0.342,-1.266,474.182,-29.907,-153.137
-0.194,-0.389,-0.905,513.000,-54.443,-155.151
-0.132,-0.428,-0.681,538.757,-57.068,-149.597
0.051,-0.479,-0.290,532.166,-50.903,-140.564
0.142,-0.462,-0.152,512.451,-26.062,-114.502
0.233,-0.474,0.038,510.803,-10.010,-102.417
0.241,-0.482,0.125,517.334,15.198,-90.454
0.257,-0.481,0.330,513.916,20.691,-91.431
0.275,-0.481,0.444,488.464,9.216,-97.778
0.321,-0.488,0.752,467.529,-5.188,-96.863
0.315,-0.467,0.909,407.776,-40.344,-83.679
0.258,-0.396,1.155,380.371,-54.016,-81.238
0.219,-0.385,1.293,341.431,-70.190,-88.562
0.112,-0.439,1.680,322.388,-72.144,-94.360
0.077,-0.474,1.887,246.887,-76.965,-109.375
0.093,-0.469,2.090,184.937,-89.783,-114.868
0.154,-0.446,2.078,51.819,-105.347,-102.356
0.290,-0.358,1.860,-1.709,-86.121,-79.712
0.342,-0.293,1.677,-79.102,-22.156,-21.240
0.338,-0.116,1.341,-106.018,1.648,4.700
0.286,-0.012,1.219,-148.010,16.113,34.851
0.210,0.166,1.053,-165.161,11.292,38.635
0.198,0.228,1.012,-196.350,-10.010,32.593
0.198,0.283,0.954,-213.440,-22.522,27.039
0.209,0.278,0.910,-246.826,-38.269,20.691
0.211,0.265,0.806,-259.766,-39.307,22.583
0.203,0.291,0.768,-276.428,-27.222,35.767
0.172,0.371,0.706,-283.752,-17.822,44.067
0.156,0.401,0.656,-306.152,-9.705,55.054
0.133,0.436,0.537,-323.547,-14.038,55.420
0.125,0.443,0.469,-367.615,-32.654,49.377
0.097,0.467,0.268,-387.146,-39.001,46.082
0.079,0.477,0.148,-403.015,-30.579,46.387
0.064,0.469,-0.080,-399.963,-22.217,50.293
0.051,0.469,-0.182,-380.310,-11.292,58.411
0.028,0.478,-0.352,-368.469,-7.812,58.899
0.017,0.482,-0.463,-356.140,14.038,57.739
-0.070,0.537,-0.799,-349.915,39.368,60.303
-0.125,0.580,-0.990,-318.481,62.805,60.669
-0.136,0.624,-1.193,-296.082,35.950,52.063
-0.088,0.623,-1.176,-255.554,-68.359,27.710
-0.019,0.592,-0.987,-238.770,-106.628,20.203
-0.017,0.546,-0.881,-225.708,-117.737,16.113
-0.065,0.433,-0.797,-223.816,-58.105,14.038
-0.090,0.388,-0.854,-235.779,-10.254,13.550
-0.105,0.358,-1.112,-265.381,54.626,7.935
-0.071,0.375,-1.233,-258.057,48.157,-0.671
0.031,0.375,-1.308,-231.750,21.912,-1.831
0.032,0.312,-1.256,-197.144,-5.920,1.709
-0.035,0.219,-1.097,-154.907,-25.085,12.329
-0.043,0.217,-1.085,-156.433,-22.156,13.611
-0.021,0.236,-1.221,-165.100,-18.738,9.827
-0.005,0.212,-1.289,-157.471,-15.869,6.653
0.002,0.170,-1.322,-124.512,4.150,-3.418
0.015,0.139,-1.265,-105.835,18.066,-4.150
0.036,0.099,-1.218,-81.665,7.141,1.648
0.047,0.068,-1.362,-80.811,-10.864,2.502
0.049,0.100,-1.446,-76.355,-14.832,2.319
0.086,0.138,-1.437,-62.195,-14.343,3.113
0.100,0.140,-1.358,-25.818,-35.767,2.075
0.106,0.138,-1.174,-15.991,-46.326,3.784
0.077,0.161,-1.110,-14.343,-39.917,10.498
0.023,0.226,-1.068,-17.212,-28.503,9.399
0.028,0.229,-1.073,-21.667,-16.296,-0.366
0.058,0.183,-1.064,-19.165,-14.771,-2.930
0.071,0.158,-1.047,-13.184,-16.602,-1.770
0.068,0.148,-1.032,-12.817,-15.808,-0.305
0.067,0.150,-1.046,-12.512,-1.831,-0.488
0.076,0.147,-1.091,-11.902,5.188,-1.343
0.083,0.140,-1.103,-8.545,3.418,-2.563
0.082,0.130,-1.077,-6.714,-1.526,-2.991
0.070,0.136,-1.066,-2.869,-2.808,-0.916
0.060,0.147,-1.042,-0.732,0.305,-0.122
0.064,0.149,-1.030,-0.122,1.953,0.000
0.055,0.162,-1.016,0.610,2.014,0.183
0.050,0.164,-1.004,4.028,2.014,0.061
0.043,0.154,-0.978,3.845,-0.305,-0.122
0.033,0.149,-0.976,2.014,-2.502,-0.366
0.029,0.146,-0.986,1.526,0.122,-0.427
0.039,0.145,-0.992,1.160,0.427,-1.404
0.050,0.146,-1.005,2.075,-1.404,-2.075
0.056,0.144,-0.997,4.883,-0.427,-2.808
0.087,0.126,-0.980,3.906,0.244,-2.136
0.089,0.135,-0.988,1.160,1.770,1.038
0.068,0.153,-0.998,1.709,3.723,1.709
0.065,0.148,-0.996,2.075,5.127,1.587
0.052,0.145,-0.998,2.075,4.700,1.160
0.048,0.142,-0.994,2.319,4.272,1.038
0.046,0.141,-0.991,1.648,3.235,0.732
0.042,0.157,-0.995,1.404,3.601,0.488
0.046,0.163,-0.993,2.869,2.075,0.000
0.040,0.167,-0.973,3.967,-0.183,-0.122
0.031,0.166,-0.960,4.456,-1.892,-0.488
0.032,0.153,-0.955,3.540,-0.366,-0.427
0.039,0.149,-0.963,0.244,1.892,0.488
0.040,0.154,-0.986,-0.793,1.831,0.793
0.035,0.156,-0.991,-0.244,0.244,0.061
0.025,0.156,-0.992,0.488,-0.732,-0.793
0.025,0.158,-0.990,1.038,-0.916,-2.563
0.041,0.160,-0.986,0.244,-1.038,-3.052
0.047,0.161,-0.989,-0.977,-1.282,-3.113
0.058,0.156,-1.000,-0.977,-0.366,-2.808
0.062,0.155,-1.005,-0.916,-0.488,-1.770
0.063,0.154,-1.011,-0.671,-1.770,-1.465
0.060,0.155,-1.012,1.038,-1.587,-0.549
0.050,0.157,-1.007,1.770,-0.916,-0.244
0.050,0.154,-1.005,1.526,-1.343,-0.305
0.055,0.157,-1.001,1.404,-1.526,-0.122
0.054,0.159,-1.001,1.648,-0.122,0.305
0.055,0.159,-0.999,2.014,0.854,0.122
0.058,0.159,-0.996,2.197,0.000,-0.549
0.048,0.165,-0.990,2.136,-0.549,-0.366

